Sponsors: []Modifications: (a)Except as provided in Subsection (2)(c), "consumer"(b)  "Consumer" includes a representative of an association subject to:(i)  Title 57, Chapter 8, Condominium Ownership Act; or(ii)  Title 57, Chapter 8a, Community Association Act.(c)  "Consumer" does not include a person engaged in business for profit if the personenters into the service contract as part of the person's business activities.(a):(i);(ii);(iii).(b) (i)  The seller shall provide the written notice required under Subsection (1):(A)  no later thanbeforeand(B)  no soonerbefore.(ii)  The seller may not provide the written notice required under Subsection (1) exceptduring the time period described in Subsection (2)(b)(i).(c)  The written notice required under Subsection (1) shall be:(i); and(ii)Full text:



Utah State Legislature












Legislators

By Session (1896-Current)
Alphabetical (Historical)
Find by Address/Map
More


Bills

Bills/Bill Requests
Passed Bills
2017 Bills

Keyword Search
Reading Calendars
Tracking Service
More


Committees

All Committees
Appropriations
Commissions

Independent Legislative Ethics Commission
Interim
Standing
Subcommittees
Task Forces
Bills In Committees


Utah Code / Constitution


Title/Chapter/Section
Keyword Search 

Utah Constitution
Laws of Utah 1851-ongoing
Utah Territorial Laws 
More


Senate

Main Page 
About The Senate 
Leadership 
Roster 
Seating Chart 
District Maps 
Extraordinary Sessions 
Reading Calendars 
Past Floor Debates 
Senate Journals 


House

Main Page
About the House 
Leadership 
Roster 
Seating Chart 
District Maps 
Reading Calendars 
Past Floor Debates 
Journals 
Conflict of Interest Forms 


Legislative Guide 

Legislative Guide
Civic Programs
GRAMA (Records Requests)


Publications

Search Publications
Appropriations
Audits
Bagels & Briefings
Briefing Papers
Digest of Legislation
Legislative Drafting Manual

Journals

Interim Highlights

Legislative Rules
GRAMA (Records Requests)
Public Email
State Organization Charts
YouTube Channel
Requests for Proposals and Legal Notices
More


Legislative Histories

Legislative History Resources
How to Research
Bill Drafting/Research Files (1990-Ongoing)

Working Bills (1896-1989)
Interim Committee Histories (1990-Ongoing) 
Journals
Past House Floor Debates
Past Senate Floor Debates
More


Staff Offices

All Legislative Offices
Auditor General
Fiscal Analyst
Printing
Research and General Counsel
Staff Awards
Job Opportunities
More


Links of Interest

Utah Administrative Rules
Courts
Utah State Capitol
State of Utah
Federal Legislation
More






 

Download Zipped Enrolled WordPerfect SB0191.ZIP
[Introduced][Status][Bill Documents][Fiscal Note][Bills Directory]


S.B. 191 Enrolled





            
1

    
 SERVICE CONTRACTS ACT AMENDMENTS



            
2

    
2006 GENERAL SESSION

            
3

    
STATE OF UTAH

            
4

    


 Chief Sponsor:  Michael G. Waddoups



            
5

    



House Sponsor:  






James A. Dunnigan





            
6

    

            
7

    
 LONG TITLE
            
8

    
 General Description:
            
9

    
    This bill amends the Service Contracts Act.
            
10

    
 Highlighted Provisions:
            
11

    
    This bill:
            
12

    
    .    amends the definition of "consumer" under the act;
            
13

    
    .    clarifies the time period during which notice may be provided by a seller; and
            
14

    
    .    makes technical changes.
            
15

    
 Monies Appropriated in this Bill:
            
16

    
    None
            
17

    
 Other Special Clauses:
            
18

    
    None
            
19

    
 Utah Code Sections Affected:
            
20

    
AMENDS:
            
21

    
     15-10-102, as enacted by Chapter 46, Laws of Utah 2003
            
22

    
     15-10-201, as enacted by Chapter 46, Laws of Utah 2003
            
23

    

            
24

    
Be it enacted by the Legislature of the state of Utah:
            
25

    
    Section 1.  
Section  
15-10-102

 is amended to read:
            
26

    
     15-10-102.  Definitions.
            
27

    
    As used in this chapter:
            
28

    
    (1)  "Automatic renewal provision" means a provision under which a service contract is
            
29

    
renewed for a specified period if:

            
30


    
    (a)  the renewal causes the service contract to be in effect more than six months after
            
31

    
the day of the initiation of the service contract; and
            
32

    
    (b)  the renewal is effective unless the consumer gives notice to the seller of the
            
33

    
consumer's intention to terminate the service contract.
            
34

    
    (2) (a)  ["Consumer"] Except as provided in Subsection (2)(c), "consumer" means a
            
35

    
person receiving service, maintenance, or repair under a service contract.
            
36

    
    (b)  "Consumer" includes a representative of an association subject to:
            
37

    
    (i)  Title 57, Chapter 8, Condominium Ownership Act; or
            
38

    
    (ii)  Title 57, Chapter 8a, Community Association Act.
            
39

    
    (c)  "Consumer" does not include a person engaged in business for profit if the person
            
40

    
enters into the service contract as part of the person's business activities.
            
41

    
    (3)  "Seller" means a person providing service, maintenance, or repair under a service
            
42

    
contract.
            
43

    
    (4) (a)  "Service contract" means any contract for service, maintenance, or repair:
            
44

    
    (i)  in connection with any real property; or
            
45

    
    (ii)  that provides a benefit to any real property.
            
46

    
    (b)  "Service contract" does not include a contract affecting any right, title, estate, or
            
47

    
interest in real property, including:
            
48

    
    (i)  a fee title interest;
            
49

    
    (ii)  a leasehold interest;
            
50

    
    (iii)  an option contract relating to real property;
            
51

    
    (iv)  a real estate purchase contract;
            
52

    
    (v)  an easement; or
            
53

    
    (vi)  any other real property interest governed by Title 57, Real Estate.
            
54

    
    Section 2.  
Section  
15-10-201

 is amended to read:
            
55

    
     15-10-201.  Notice requirement.
            
56

    
    (1)  A service contract may not contain an automatic renewal provision unless the seller
            
57

    
provides the consumer written notice complying with Subsection (2) that informs the consumer

            
58


    
of the automatic renewal provision.
            
59

    
    (2) (a)  The seller shall provide the written notice required under Subsection (1) to the
            
60

    
consumer:
            
61

    
    (i)  personally[,];
            
62

    
    (ii)  by certified mail[,]; or
            
63

    
    (iii)  prominently displayed on the first page of a monthly statement[:].
            
64

    
    (b) (i)  The seller shall provide the written notice required under Subsection (1):
            
65

    
    [(a)  at least] (A)  no later than 30 calendar days [prior to] before the last day on which
            
66

    
the consumer may give notice of the consumer's intention to terminate the contract; and
            
67

    
    [(b)  not more] (B)  no sooner than 90 calendar days [prior to] before the last day on
            
68

    
which the consumer may give notice of the consumer's intention to terminate the contract[;
            
69

    
and].
            
70

    
    (ii)  The seller may not provide the written notice required under Subsection (1) except
            
71

    
during the time period described in Subsection (2)(b)(i).
            
72

    
    (c)  The written notice required under Subsection (1) shall be:
            
73

    
    [(c)] (i)  written in clear and understandable language; and
            
74

    
    (ii)  printed in an easy-to-read type size and style.
[Bill Documents][Bills Directory]









Who represents me?





Remember my Legislators





State Senate
		350 North State, Suite 320
		PO Box 145115
		Salt Lake City, Utah 84114

		Telephone: (801) 538-1035
		Fax: (801) 326-1475



House of Representatives
		350 North State, Suite 350
		PO Box 145030
		Salt Lake City, Utah 84114

		Telephone: (801) 538-1029
		Fax: (801) 326-1544










Home
Mobile Site
Site Map
Calendar
Code / Constitution
House
Senate

Terms of Use/Privacy Policy

ADA
Utah.gov







